{
  "resourceType": "Bundle",
  "id": "example-laboratory-simple-result-bundle",
  "type": "document",
  "entry": [
    {
      "resource": {
        "resourceType": "Composition",
        "id": "example-laboratory-simple-composition",
        "meta": {
          "profile": [
            "http://i-tech-uw.github.io/laboratory-workflows-ig/StructureDefinition/laboratory-composition"
          ]
        },
        "text": {
          "status": "generated",
          "div": "<div xmlns=\"http://www.w3.org/1999/xhtml\"><p><b>Generated Narrative</b></p><div style=\"display: inline-block; background-color: #d9e0e7; padding: 6px; margin: 4px; border: 1px solid #8da1b4; border-radius: 5px; line-height: 60%\"><p style=\"margin-bottom: 0px\">Resource \"example-laboratory-simple-composition\" </p><p style=\"margin-bottom: 0px\">Profile: <a href=\"StructureDefinition-laboratory-composition.html\">Laboratory Order Composition</a></p></div><p><b>status</b>: final</p><p><b>type</b>: document <span style=\"background: LightGoldenRodYellow; margin: 4px; border: 1px solid khaki\"> ([not stated]#document)</span></p><p><b>date</b>: 2021-06-08</p><p><b>author</b>: <a href=\"#Practitioner_example-laboratory-practitioner\">See above (Practitioner/example-laboratory-practitioner)</a></p><p><b>title</b>: Laboratory Single Order Composition</p></div>"
        },
        "status": "final",
        "type": {
          "coding": [
            {
              "code": "document"
            }
          ]
        },
        "subject": {
          "reference": "Patient/example-laboratory-patient"
        },
        "date": "2021-06-08",
        "author": [
          {
            "reference": "Practitioner/example-laboratory-practitioner"
          }
        ],
        "title": "Laboratory Single Order Composition",
        "section": [
          {
            "entry": [
              {
                "reference": "Task/example-laboratory-task-requested"
              }
            ]
          },
          {
            "entry": [
              {
                "reference": "ServiceRequest/example-laboratory-service-request"
              }
            ]
          }
        ]
      }
    },
    {
      "resource": {
        "resourceType": "Patient",
        "id": "example-laboratory-patient",
        "meta": {
          "profile": [
            "http://i-tech-uw.github.io/laboratory-workflows-ig/StructureDefinition/laboratory-patient"
          ]
        },
        "text": {
          "status": "generated",
          "div": "<div xmlns=\"http://www.w3.org/1999/xhtml\"><p><b>Generated Narrative</b></p><div style=\"display: inline-block; background-color: #d9e0e7; padding: 6px; margin: 4px; border: 1px solid #8da1b4; border-radius: 5px; line-height: 60%\"><p style=\"margin-bottom: 0px\">Resource \"example-laboratory-patient\" </p><p style=\"margin-bottom: 0px\">Profile: <a href=\"StructureDefinition-laboratory-patient.html\">Laboratory Workflow Patient</a></p></div><p><b>identifier</b>: iSantePlus ID: 10012R (OFFICIAL)</p><p><b>active</b>: true</p><p><b>name</b>: moses Mutesa </p><p><b>gender</b>: female</p><p><b>birthDate</b>: 1988-03-02</p><p><b>deceased</b>: false</p><p><b>address</b>: haiti (HOME)</p></div>"
        },
        "identifier": [
          {
            "id": "5981a256-d60c-44b1-beae-9bdd2cf572f8",
            "extension": [
              {
                "url": "http://i-tech-uw.github.io/laboratory-ig/StructureDefinition/laboratory-patient-identifier-location",
                "valueReference": {
                  "reference": "Location/8d6c993e-c2cc-11de-8d13-0010c6dffd0f",
                  "type": "Location",
                  "display": "Unknown Location"
                }
              }
            ],
            "use": "official",
            "type": {
              "text": "iSantePlus ID"
            },
            "value": "10012R"
          }
        ],
        "active": true,
        "name": [
          {
            "id": "511275de-e301-44a3-95d2-28d0d3b35387",
            "family": "Mutesa",
            "given": [
              "moses"
            ]
          }
        ],
        "gender": "female",
        "birthDate": "1988-03-02",
        "deceasedBoolean": false,
        "address": [
          {
            "id": "d4f7c809-3d01-4032-b64d-4c22e8eccbbc",
            "use": "home",
            "country": "haiti"
          }
        ]
      }
    },
    {
      "resource": {
        "resourceType": "Practitioner",
        "id": "example-laboratory-practitioner",
        "meta": {
          "profile": [
            "http://i-tech-uw.github.io/laboratory-workflows-ig/StructureDefinition/laboratory-practitioner"
          ]
        },
        "text": {
          "status": "generated",
          "div": "<div xmlns=\"http://www.w3.org/1999/xhtml\"><p><b>Generated Narrative</b></p><div style=\"display: inline-block; background-color: #d9e0e7; padding: 6px; margin: 4px; border: 1px solid #8da1b4; border-radius: 5px; line-height: 60%\"><p style=\"margin-bottom: 0px\">Resource \"example-laboratory-practitioner\" </p><p style=\"margin-bottom: 0px\">Profile: <a href=\"StructureDefinition-laboratory-practitioner.html\">Laboratory Encounter</a></p></div><p><b>identifier</b>: id: 1000AX</p><p><b>name</b>: Moses Mutesa</p></div>"
        },
        "identifier": [
          {
            "system": "http://fhir.openmrs.org/ext/provider/identifier",
            "value": "1000AX"
          }
        ],
        "name": [
          {
            "text": "Moses Mutesa"
          }
        ]
      }
    },
    {
      "resource": {
        "resourceType": "Task",
        "id": "example-laboratory-task-simple-completed",
        "meta": {
          "profile": [
            "http://i-tech-uw.github.io/laboratory-workflows-ig/StructureDefinition/laboratory-task"
          ]
        },
        "text": {
          "status": "generated",
          "div": "<div xmlns=\"http://www.w3.org/1999/xhtml\"><p><b>Generated Narrative</b></p><div style=\"display: inline-block; background-color: #d9e0e7; padding: 6px; margin: 4px; border: 1px solid #8da1b4; border-radius: 5px; line-height: 60%\"><p style=\"margin-bottom: 0px\">Resource \"example-laboratory-task-simple-completed\" </p><p style=\"margin-bottom: 0px\">Profile: <a href=\"StructureDefinition-laboratory-task.html\">Laboratory Workflow Task Resource</a></p></div><p><b>identifier</b>: id: 88ffa7fb-0419-4097-8b45-24f0d843a5ea</p><p><b>basedOn</b>: <a href=\"#ServiceRequest_example-laboratory-service-request\">See above (ServiceRequest/example-laboratory-service-request)</a></p><p><b>status</b>: completed</p><p><b>intent</b>: order</p><p><b>for</b>: <a href=\"#Patient_example-laboratory-patient\">See above (Patient/example-laboratory-patient)</a></p><p><b>authoredOn</b>: 2021-02-20</p><p><b>owner</b>: <a href=\"#Practitioner_example-laboratory-practitioner\">See above (Practitioner/example-laboratory-practitioner)</a></p><h3>Outputs</h3><table class=\"grid\"><tr><td>-</td><td><b>Type</b></td><td><b>Value[x]</b></td></tr><tr><td>*</td><td>DiagnosticReport <span style=\"background: LightGoldenRodYellow; margin: 4px; border: 1px solid khaki\"> ()</span></td><td><a href=\"#DiagnosticReport_example-laboratory-diagnostic-report\">See above (DiagnosticReport/example-laboratory-diagnostic-report)</a></td></tr></table></div>"
        },
        "identifier": [
          {
            "system": "http://i-tech-uw.github.io/lab-workflow-ig/ext/task/identifier",
            "value": "88ffa7fb-0419-4097-8b45-24f0d843a5ea"
          }
        ],
        "basedOn": [
          {
            "reference": "ServiceRequest/example-laboratory-service-request",
            "type": "ServiceRequest"
          }
        ],
        "status": "completed",
        "intent": "order",
        "for": {
          "reference": "Patient/example-laboratory-patient"
        },
        "authoredOn": "2021-02-20",
        "owner": {
          "reference": "Practitioner/example-laboratory-practitioner"
        },
        "output": [
          {
            "type": {
              "text": "DiagnosticReport"
            },
            "valueReference": {
              "reference": "DiagnosticReport/example-laboratory-diagnostic-report"
            }
          }
        ]
      }
    },
    {
      "resource": {
        "resourceType": "ServiceRequest",
        "id": "example-laboratory-service-request",
        "meta": {
          "profile": [
            "http://i-tech-uw.github.io/laboratory-workflows-ig/StructureDefinition/laboratory-service-request"
          ]
        },
        "text": {
          "status": "generated",
          "div": "<div xmlns=\"http://www.w3.org/1999/xhtml\"><p><b>Generated Narrative</b></p><div style=\"display: inline-block; background-color: #d9e0e7; padding: 6px; margin: 4px; border: 1px solid #8da1b4; border-radius: 5px; line-height: 60%\"><p style=\"margin-bottom: 0px\">Resource \"example-laboratory-service-request\" </p><p style=\"margin-bottom: 0px\">Profile: <a href=\"StructureDefinition-laboratory-service-request.html\">Laboratory Service Request</a></p></div><p><b>status</b>: active</p><p><b>intent</b>: order</p><p><b>code</b>: Creatinine [Moles/volume] in Serum or Plasma <span style=\"background: LightGoldenRodYellow; margin: 4px; border: 1px solid khaki\"> (<a href=\"https://loinc.org/\">LOINC</a>#14682-9)</span></p><p><b>subject</b>: <a href=\"#Patient_example-laboratory-patient\">See above (Patient/example-laboratory-patient)</a></p></div>"
        },
        "status": "active",
        "intent": "order",
        "code": {
          "coding": [
            {
              "system": "http://loinc.org",
              "code": "14682-9"
            }
          ]
        },
        "subject": {
          "reference": "Patient/example-laboratory-patient"
        }
      }
    },
    {
      "resource": {
        "resourceType": "DiagnosticReport",
        "id": "example-laboratory-diagnostic-report",
        "meta": {
          "profile": [
            "http://i-tech-uw.github.io/laboratory-workflows-ig/StructureDefinition/laboratory-diagnostic-report"
          ]
        },
        "text": {
          "status": "generated",
          "div": "<div xmlns=\"http://www.w3.org/1999/xhtml\"><p><b>Generated Narrative</b></p><div style=\"display: inline-block; background-color: #d9e0e7; padding: 6px; margin: 4px; border: 1px solid #8da1b4; border-radius: 5px; line-height: 60%\"><p style=\"margin-bottom: 0px\">Resource \"example-laboratory-diagnostic-report\" </p><p style=\"margin-bottom: 0px\">Profile: <a href=\"StructureDefinition-laboratory-diagnostic-report.html\">Laboratory Diagnostic Report</a></p></div><p><b>status</b>: final</p><p><b>category</b>: Cholesterol in LDL [Moles/volume] in Serum or Plasma <span style=\"background: LightGoldenRodYellow; margin: 4px; border: 1px solid khaki\"> (<a href=\"https://loinc.org/\">LOINC</a>#22748-8)</span></p><p><b>code</b>: Cholesterol in LDL [Moles/volume] in Serum or Plasma <span style=\"background: LightGoldenRodYellow; margin: 4px; border: 1px solid khaki\"> (<a href=\"https://loinc.org/\">LOINC</a>#22748-8)</span></p><p><b>subject</b>: <a href=\"example-laboratory-patient\">example-laboratory-patient</a></p><p><b>effective</b>: 2011-03-04 08:30:00+1100</p><p><b>result</b>: <a href=\"#Observation_example-laboratory-observation\">See above (Observation/example-laboratory-observation)</a></p></div>"
        },
        "status": "final",
        "category": [
          {
            "coding": [
              {
                "system": "http://loinc.org",
                "code": "22748-8"
              }
            ]
          }
        ],
        "code": {
          "coding": [
            {
              "system": "http://loinc.org",
              "code": "22748-8"
            }
          ]
        },
        "subject": {
          "reference": "example-laboratory-patient",
          "type": "Patient"
        },
        "effectiveDateTime": "2011-03-04T08:30:00+11:00",
        "result": [
          {
            "reference": "Observation/example-laboratory-observation",
            "type": "Observation"
          }
        ]
      }
    },
    {
      "resource": {
        "resourceType": "Observation",
        "id": "example-laboratory-observation",
        "meta": {
          "profile": [
            "http://i-tech-uw.github.io/laboratory-workflows-ig/StructureDefinition/laboratory-observation"
          ]
        },
        "text": {
          "status": "generated",
          "div": "<div xmlns=\"http://www.w3.org/1999/xhtml\"><p><b>Generated Narrative</b></p><div style=\"display: inline-block; background-color: #d9e0e7; padding: 6px; margin: 4px; border: 1px solid #8da1b4; border-radius: 5px; line-height: 60%\"><p style=\"margin-bottom: 0px\">Resource \"example-laboratory-observation\" </p><p style=\"margin-bottom: 0px\">Profile: <a href=\"StructureDefinition-laboratory-observation.html\">Laboratory Observation</a></p></div><p><b>identifier</b>: id: ebf83ba0-9d3c-497f-9aa0-d839ec506202</p><p><b>status</b>: final</p><p><b>category</b>: Laboratory <span style=\"background: LightGoldenRodYellow; margin: 4px; border: 1px solid khaki\"> (<a href=\"http://terminology.hl7.org/3.1.0/CodeSystem-observation-category.html\">Observation Category Codes</a>#laboratory)</span></p><p><b>code</b>: Cholesterol in LDL [Moles/volume] in Serum or Plasma <span style=\"background: LightGoldenRodYellow; margin: 4px; border: 1px solid khaki\"> (<a href=\"https://loinc.org/\">LOINC</a>#22748-8)</span></p><p><b>subject</b>: <a href=\"#Patient_example-laboratory-patient\">See above (Patient/example-laboratory-patient)</a></p><p><b>effective</b>: 2011-03-04 08:30:00+1100</p><p><b>performer</b>: <a href=\"#Practitioner_example-laboratory-practitioner\">See above (Practitioner/example-laboratory-practitioner)</a></p><p><b>value</b>: 55 UI/L<span style=\"background: LightGoldenRodYellow\"> (Details: UCUM code 88 = '88')</span></p></div>"
        },
        "identifier": [
          {
            "system": "https://isanteplusdemo.com/openmrs/ws/fhir2/",
            "value": "ebf83ba0-9d3c-497f-9aa0-d839ec506202"
          }
        ],
        "status": "final",
        "category": [
          {
            "coding": [
              {
                "system": "http://terminology.hl7.org/CodeSystem/observation-category",
                "code": "laboratory"
              }
            ]
          }
        ],
        "code": {
          "coding": [
            {
              "system": "http://loinc.org",
              "code": "22748-8"
            }
          ]
        },
        "subject": {
          "reference": "Patient/example-laboratory-patient",
          "type": "Patient"
        },
        "effectiveDateTime": "2011-03-04T08:30:00+11:00",
        "performer": [
          {
            "reference": "Practitioner/example-laboratory-practitioner"
          }
        ],
        "valueQuantity": {
          "value": 55,
          "unit": "UI/L",
          "system": "http://unitsofmeasure.org",
          "code": "88"
        }
      }
    }
  ]
}