<?xml version="1.0" encoding="UTF-8"?>

<Bundle xmlns="http://hl7.org/fhir">
  <id value="example-laboratory-simple-result-bundle"/>
  <type value="document"/>
  <entry>
    <resource>
      <Composition>
        <id value="example-laboratory-simple-composition"/>
        <meta>
          <profile value="http://i-tech-uw.github.io/laboratory-workflows-ig/StructureDefinition/laboratory-composition"/>
        </meta>
        <text>
          <status value="generated"/><div xmlns="http://www.w3.org/1999/xhtml"><p><b>Generated Narrative</b></p><div style="display: inline-block; background-color: #d9e0e7; padding: 6px; margin: 4px; border: 1px solid #8da1b4; border-radius: 5px; line-height: 60%"><p style="margin-bottom: 0px">Resource "example-laboratory-simple-composition" </p><p style="margin-bottom: 0px">Profile: <a href="StructureDefinition-laboratory-composition.html">Laboratory Order Composition</a></p></div><p><b>status</b>: final</p><p><b>type</b>: document <span style="background: LightGoldenRodYellow; margin: 4px; border: 1px solid khaki"> ([not stated]#document)</span></p><p><b>date</b>: 2021-06-08</p><p><b>author</b>: <a href="#Practitioner_example-laboratory-practitioner">See above (Practitioner/example-laboratory-practitioner)</a></p><p><b>title</b>: Laboratory Single Order Composition</p></div>
        </text>
        <status value="final"/>
        <type>
          <coding>
            <code value="document"/>
          </coding>
        </type>
        <subject>
          <reference value="Patient/example-laboratory-patient"/>
        </subject>
        <date value="2021-06-08"/>
        <author>
          <reference value="Practitioner/example-laboratory-practitioner"/>
        </author>
        <title value="Laboratory Single Order Composition"/>
        <section>
          <entry>
            <reference value="Task/example-laboratory-task-requested"/>
          </entry>
        </section>
        <section>
          <entry>
            <reference value="ServiceRequest/example-laboratory-service-request"/>
          </entry>
        </section>
      </Composition>
    </resource>
  </entry>
  <entry>
    <resource>
      <Patient>
        <id value="example-laboratory-patient"/>
        <meta>
          <profile value="http://i-tech-uw.github.io/laboratory-workflows-ig/StructureDefinition/laboratory-patient"/>
        </meta>
        <text>
          <status value="generated"/><div xmlns="http://www.w3.org/1999/xhtml"><p><b>Generated Narrative</b></p><div style="display: inline-block; background-color: #d9e0e7; padding: 6px; margin: 4px; border: 1px solid #8da1b4; border-radius: 5px; line-height: 60%"><p style="margin-bottom: 0px">Resource "example-laboratory-patient" </p><p style="margin-bottom: 0px">Profile: <a href="StructureDefinition-laboratory-patient.html">Laboratory Workflow Patient</a></p></div><p><b>identifier</b>: iSantePlus ID: 10012R (OFFICIAL)</p><p><b>active</b>: true</p><p><b>name</b>: moses Mutesa </p><p><b>gender</b>: female</p><p><b>birthDate</b>: 1988-03-02</p><p><b>deceased</b>: false</p><p><b>address</b>: haiti (HOME)</p></div>
        </text>
        <identifier id="5981a256-d60c-44b1-beae-9bdd2cf572f8">
          <extension url="http://i-tech-uw.github.io/laboratory-ig/StructureDefinition/laboratory-patient-identifier-location">
            <valueReference>
              <reference value="Location/8d6c993e-c2cc-11de-8d13-0010c6dffd0f"/>
              <type value="Location"/>
              <display value="Unknown Location"/>
            </valueReference>
          </extension>
          <use value="official"/>
          <type>
            <text value="iSantePlus ID"/>
          </type>
          <value value="10012R"/>
        </identifier>
        <active value="true"/>
        <name id="511275de-e301-44a3-95d2-28d0d3b35387">
          <family value="Mutesa"/>
          <given value="moses"/>
        </name>
        <gender value="female"/>
        <birthDate value="1988-03-02"/>
        <deceasedBoolean value="false"/>
        <address id="d4f7c809-3d01-4032-b64d-4c22e8eccbbc">
          <use value="home"/>
          <country value="haiti"/>
        </address>
      </Patient>
    </resource>
  </entry>
  <entry>
    <resource>
      <Practitioner>
        <id value="example-laboratory-practitioner"/>
        <meta>
          <profile value="http://i-tech-uw.github.io/laboratory-workflows-ig/StructureDefinition/laboratory-practitioner"/>
        </meta>
        <text>
          <status value="generated"/><div xmlns="http://www.w3.org/1999/xhtml"><p><b>Generated Narrative</b></p><div style="display: inline-block; background-color: #d9e0e7; padding: 6px; margin: 4px; border: 1px solid #8da1b4; border-radius: 5px; line-height: 60%"><p style="margin-bottom: 0px">Resource "example-laboratory-practitioner" </p><p style="margin-bottom: 0px">Profile: <a href="StructureDefinition-laboratory-practitioner.html">Laboratory Encounter</a></p></div><p><b>identifier</b>: id: 1000AX</p><p><b>name</b>: Moses Mutesa</p></div>
        </text>
        <identifier>
          <system value="http://fhir.openmrs.org/ext/provider/identifier"/>
          <value value="1000AX"/>
        </identifier>
        <name>
          <text value="Moses Mutesa"/>
        </name>
      </Practitioner>
    </resource>
  </entry>
  <entry>
    <resource>
      <Task>
        <id value="example-laboratory-task-simple-completed"/>
        <meta>
          <profile value="http://i-tech-uw.github.io/laboratory-workflows-ig/StructureDefinition/laboratory-task"/>
        </meta>
        <text>
          <status value="generated"/><div xmlns="http://www.w3.org/1999/xhtml"><p><b>Generated Narrative</b></p><div style="display: inline-block; background-color: #d9e0e7; padding: 6px; margin: 4px; border: 1px solid #8da1b4; border-radius: 5px; line-height: 60%"><p style="margin-bottom: 0px">Resource "example-laboratory-task-simple-completed" </p><p style="margin-bottom: 0px">Profile: <a href="StructureDefinition-laboratory-task.html">Laboratory Workflow Task Resource</a></p></div><p><b>identifier</b>: id: 88ffa7fb-0419-4097-8b45-24f0d843a5ea</p><p><b>basedOn</b>: <a href="#ServiceRequest_example-laboratory-service-request">See above (ServiceRequest/example-laboratory-service-request)</a></p><p><b>status</b>: completed</p><p><b>intent</b>: order</p><p><b>for</b>: <a href="#Patient_example-laboratory-patient">See above (Patient/example-laboratory-patient)</a></p><p><b>authoredOn</b>: 2021-02-20</p><p><b>owner</b>: <a href="#Practitioner_example-laboratory-practitioner">See above (Practitioner/example-laboratory-practitioner)</a></p></div>
        </text>
        <identifier>
          <system value="http://i-tech-uw.github.io/lab-workflow-ig/ext/task/identifier"/>
          <value value="88ffa7fb-0419-4097-8b45-24f0d843a5ea"/>
        </identifier>
        <basedOn>
          <reference value="ServiceRequest/example-laboratory-service-request"/>
          <type value="ServiceRequest"/>
        </basedOn>
        <status value="completed"/>
        <intent value="order"/>
        <for>
          <reference value="Patient/example-laboratory-patient"/>
        </for>
        <authoredOn value="2021-02-20"/>
        <owner>
          <reference value="Practitioner/example-laboratory-practitioner"/>
        </owner>
      </Task>
    </resource>
  </entry>
  <entry>
    <resource>
      <ServiceRequest>
        <id value="example-laboratory-service-request"/>
        <meta>
          <profile value="http://i-tech-uw.github.io/laboratory-workflows-ig/StructureDefinition/laboratory-service-request"/>
        </meta>
        <text>
          <status value="generated"/><div xmlns="http://www.w3.org/1999/xhtml"><p><b>Generated Narrative</b></p><div style="display: inline-block; background-color: #d9e0e7; padding: 6px; margin: 4px; border: 1px solid #8da1b4; border-radius: 5px; line-height: 60%"><p style="margin-bottom: 0px">Resource "example-laboratory-service-request" </p><p style="margin-bottom: 0px">Profile: <a href="StructureDefinition-laboratory-service-request.html">Laboratory Service Request</a></p></div><p><b>status</b>: active</p><p><b>intent</b>: order</p><p><b>code</b>: Creatinine [Moles/volume] in Serum or Plasma <span style="background: LightGoldenRodYellow; margin: 4px; border: 1px solid khaki"> (<a href="https://loinc.org/">LOINC</a>#14682-9)</span></p><p><b>subject</b>: <a href="#Patient_example-laboratory-patient">See above (Patient/example-laboratory-patient)</a></p></div>
        </text>
        <status value="active"/>
        <intent value="order"/>
        <code>
          <coding>
            <system value="http://loinc.org"/>
            <code value="14682-9"/>
          </coding>
        </code>
        <subject>
          <reference value="Patient/example-laboratory-patient"/>
        </subject>
      </ServiceRequest>
    </resource>
  </entry>
  <entry>
    <resource>
      <DiagnosticReport>
        <id value="example-laboratory-diagnostic-report"/>
        <meta>
          <profile value="http://i-tech-uw.github.io/laboratory-workflows-ig/StructureDefinition/laboratory-diagnostic-report"/>
        </meta>
        <text>
          <status value="generated"/><div xmlns="http://www.w3.org/1999/xhtml"><p><b>Generated Narrative</b></p><div style="display: inline-block; background-color: #d9e0e7; padding: 6px; margin: 4px; border: 1px solid #8da1b4; border-radius: 5px; line-height: 60%"><p style="margin-bottom: 0px">Resource "example-laboratory-diagnostic-report" </p><p style="margin-bottom: 0px">Profile: <a href="StructureDefinition-laboratory-diagnostic-report.html">Laboratory Diagnostic Report</a></p></div><p><b>status</b>: final</p><p><b>category</b>: Cholesterol in LDL [Moles/volume] in Serum or Plasma <span style="background: LightGoldenRodYellow; margin: 4px; border: 1px solid khaki"> (<a href="https://loinc.org/">LOINC</a>#22748-8)</span></p><p><b>code</b>: Cholesterol in LDL [Moles/volume] in Serum or Plasma <span style="background: LightGoldenRodYellow; margin: 4px; border: 1px solid khaki"> (<a href="https://loinc.org/">LOINC</a>#22748-8)</span></p><p><b>subject</b>: <a href="example-laboratory-patient">example-laboratory-patient</a></p><p><b>effective</b>: 2011-03-04 08:30:00+1100</p><p><b>result</b>: <a href="#Observation_example-laboratory-observation">See above (Observation/example-laboratory-observation)</a></p></div>
        </text>
        <status value="final"/>
        <category>
          <coding>
            <system value="http://loinc.org"/>
            <code value="22748-8"/>
          </coding>
        </category>
        <code>
          <coding>
            <system value="http://loinc.org"/>
            <code value="22748-8"/>
          </coding>
        </code>
        <subject>
          <reference value="example-laboratory-patient"/>
          <type value="Patient"/>
        </subject>
        <effectiveDateTime value="2011-03-04T08:30:00+11:00"/>
        <result>
          <reference value="Observation/example-laboratory-observation"/>
          <type value="Observation"/>
        </result>
      </DiagnosticReport>
    </resource>
  </entry>
  <entry>
    <resource>
      <Observation>
        <id value="example-laboratory-observation"/>
        <meta>
          <profile value="http://i-tech-uw.github.io/laboratory-workflows-ig/StructureDefinition/laboratory-observation"/>
        </meta>
        <text>
          <status value="generated"/><div xmlns="http://www.w3.org/1999/xhtml"><p><b>Generated Narrative</b></p><div style="display: inline-block; background-color: #d9e0e7; padding: 6px; margin: 4px; border: 1px solid #8da1b4; border-radius: 5px; line-height: 60%"><p style="margin-bottom: 0px">Resource "example-laboratory-observation" </p><p style="margin-bottom: 0px">Profile: <a href="StructureDefinition-laboratory-observation.html">Laboratory Observation</a></p></div><p><b>identifier</b>: id: ebf83ba0-9d3c-497f-9aa0-d839ec506202</p><p><b>status</b>: final</p><p><b>category</b>: Laboratory <span style="background: LightGoldenRodYellow; margin: 4px; border: 1px solid khaki"> (<a href="http://terminology.hl7.org/3.1.0/CodeSystem-observation-category.html">Observation Category Codes</a>#laboratory)</span></p><p><b>code</b>: Cholesterol in LDL [Moles/volume] in Serum or Plasma <span style="background: LightGoldenRodYellow; margin: 4px; border: 1px solid khaki"> (<a href="https://loinc.org/">LOINC</a>#22748-8)</span></p><p><b>subject</b>: <a href="#Patient_example-laboratory-patient">See above (Patient/example-laboratory-patient)</a></p><p><b>effective</b>: 2011-03-04 08:30:00+1100</p><p><b>performer</b>: <a href="#Practitioner_example-laboratory-practitioner">See above (Practitioner/example-laboratory-practitioner)</a></p><p><b>value</b>: 55 UI/L<span style="background: LightGoldenRodYellow"> (Details: UCUM code 88 = '88')</span></p></div>
        </text>
        <identifier>
          <system value="https://isanteplusdemo.com/openmrs/ws/fhir2/"/>
          <value value="ebf83ba0-9d3c-497f-9aa0-d839ec506202"/>
        </identifier>
        <status value="final"/>
        <category>
          <coding>
            <system value="http://terminology.hl7.org/CodeSystem/observation-category"/>
            <code value="laboratory"/>
          </coding>
        </category>
        <code>
          <coding>
            <system value="http://loinc.org"/>
            <code value="22748-8"/>
          </coding>
        </code>
        <subject>
          <reference value="Patient/example-laboratory-patient"/>
          <type value="Patient"/>
        </subject>
        <effectiveDateTime value="2011-03-04T08:30:00+11:00"/>
        <performer>
          <reference value="Practitioner/example-laboratory-practitioner"/>
        </performer>
        <valueQuantity>
          <value value="55"/>
          <unit value="UI/L"/>
          <system value="http://unitsofmeasure.org"/>
          <code value="88"/>
        </valueQuantity>
      </Observation>
    </resource>
  </entry>
</Bundle>